acc_sum,block_c,block_dur,condition,correct,correct_response,countdown,datetime,endtime,project,response,response_time,response_time_test1_response,response_time_test2_response,row_sel,same,session_number,start_end,starttime,stim1,stim2,subject_id,task,task_vers,time_test1,time_test2,trial
1,1,0.0,prac,1,z,30000.0,Thu Aug 29 2024 17:33:24 GMT-0500 (Central Daylight Time),74911.69999998808,O,z,1751,,,1,yes,1,3286.5,71625.19999998808,practrial1.png,practrial1.png,7012,PC,C,,,1
2,1,0.0,prac,1,z,30000.0,Thu Aug 29 2024 17:33:24 GMT-0500 (Central Daylight Time),77427.5,O,z,975,,,3,yes,1,2496.5,74931.0,practrial3.png,practrial3.png,7012,PC,C,,,2
3,1,0.0,prac,1,m,30000.0,Thu Aug 29 2024 17:33:24 GMT-0500 (Central Daylight Time),80443.09999996424,O,m,1469,,,4,no,1,2999.699999988079,77443.39999997616,practrial4.png,practrial4b.png,7012,PC,C,,,3
4,1,0.0,prac,1,z,30000.0,Thu Aug 29 2024 17:33:24 GMT-0500 (Central Daylight Time),83292.0,O,z,1301,,,5,yes,1,2832.0,80460.0,practrial5.png,practrial5.png,7012,PC,C,,,4
5,1,0.0,prac,1,m,30000.0,Thu Aug 29 2024 17:33:24 GMT-0500 (Central Daylight Time),85757.89999997616,O,m,924,,,2,no,1,2449.199999988079,83308.69999998808,practrial2.png,practrial2b.png,7012,PC,C,,,5
6,1,0.0,prac,1,m,30000.0,Thu Aug 29 2024 17:33:24 GMT-0500 (Central Daylight Time),88523.59999996424,O,m,1219,,,6,no,1,2749.2999999523163,85774.30000001192,practrial6.png,practrial6b.png,7012,PC,C,,,6
1,1,2.450000047683716,test,1,z,27549.999952316284,Thu Aug 29 2024 17:33:24 GMT-0500 (Central Daylight Time),108350.89999997616,O,z,2433,2433,,1,yes,1,2444.899999976158,105906.0,test1trial1.png,test1trial1.png,7012,PC,C,99342,,1
2,1,3.5999999046325684,test,1,m,26400.00009536743,Thu Aug 29 2024 17:33:24 GMT-0500 (Central Daylight Time),109500.89999997616,O,m,1135,1135,,2,no,1,1138.699999988079,108362.19999998808,test1trial2.png,test1trial2b.png,7012,PC,C,101800,,2
3,1,5.065999984741211,test,1,z,24934.00001525879,Thu Aug 29 2024 17:33:24 GMT-0500 (Central Daylight Time),110966.30000001192,O,z,1450,1450,,3,yes,1,1454.2000000476837,109512.09999996424,test1trial3.png,test1trial3.png,7012,PC,C,102949,,3
4,1,6.431999921798706,test,1,m,23568.000078201294,Thu Aug 29 2024 17:33:24 GMT-0500 (Central Daylight Time),112332.5,O,m,1343,1343,,4,no,1,1355.199999988079,110977.30000001192,test1trial4.png,test1trial4b.png,7012,PC,C,104416,,4
5,1,7.832000017166138,test,1,z,22167.999982833862,Thu Aug 29 2024 17:33:24 GMT-0500 (Central Daylight Time),113732.59999996424,O,z,1387,1387,,5,yes,1,1389.5999999642372,112343.0,test1trial5.png,test1trial5.png,7012,PC,C,105780,,5
6,1,8.94700002670288,test,1,m,21052.99997329712,Thu Aug 29 2024 17:33:24 GMT-0500 (Central Daylight Time),114847.89999997616,O,m,1088,1088,,6,no,1,1104.199999988079,113743.69999998808,test1trial6.png,test1trial6b.png,7012,PC,C,107182,,6
7,1,10.118000030517578,test,1,z,19881.999969482422,Thu Aug 29 2024 17:33:24 GMT-0500 (Central Daylight Time),116014.59999996424,O,z,1151,1151,,7,yes,1,1162.3999999761581,114852.19999998808,test1trial7.png,test1trial7.png,7012,PC,C,108288,,7
8,1,12.08299994468689,test,1,m,17917.00005531311,Thu Aug 29 2024 17:33:24 GMT-0500 (Central Daylight Time),117980.59999996424,O,m,1952,1952,,8,no,1,1955.2999999523163,116025.30000001192,test1trial8.png,test1trial8b.png,7012,PC,C,109463,,8
9,1,13.615999937057495,test,1,z,16384.000062942505,Thu Aug 29 2024 17:33:24 GMT-0500 (Central Daylight Time),119513.5,O,z,1506,1506,,9,yes,1,1522.1000000238419,117991.39999997616,test1trial9.png,test1trial9.png,7012,PC,C,111429,,9
10,1,14.565999984741211,test,1,m,15434.000015258789,Thu Aug 29 2024 17:33:24 GMT-0500 (Central Daylight Time),120463.09999996424,O,m,925,925,,10,no,1,939.0,119524.09999996424,test1trial10.png,test1trial10b.png,7012,PC,C,112962,,10
11,1,15.615999937057495,test,1,z,14384.000062942505,Thu Aug 29 2024 17:33:24 GMT-0500 (Central Daylight Time),121512.89999997616,O,z,1030,1030,,11,yes,1,1037.0999999642372,120475.80000001192,test1trial11.png,test1trial11.png,7012,PC,C,113913,,11
12,1,17.747999906539917,test,1,m,12252.000093460083,Thu Aug 29 2024 17:33:24 GMT-0500 (Central Daylight Time),123645.59999996424,O,m,2117,2117,,12,no,1,2122.0,121523.59999996424,test1trial12.png,test1trial12b.png,7012,PC,C,114962,,12
13,1,19.015000104904175,test,1,m,10984.999895095825,Thu Aug 29 2024 17:33:24 GMT-0500 (Central Daylight Time),124911.69999998808,O,m,1247,1247,,13,no,1,1254.199999988079,123657.5,test1trial13.png,test1trial13b.png,7012,PC,C,117096,,13
14,1,20.19700002670288,test,1,m,9802.99997329712,Thu Aug 29 2024 17:33:24 GMT-0500 (Central Daylight Time),126094.5,O,m,1167,1167,,14,no,1,1172.800000011921,124921.69999998808,test1trial14.png,test1trial14b.png,7012,PC,C,118360,,14
15,1,21.180000066757202,test,1,z,8819.999933242798,Thu Aug 29 2024 17:33:24 GMT-0500 (Central Daylight Time),127077.59999996424,O,z,969,969,,15,yes,1,972.6999999880791,126104.89999997616,test1trial15.png,test1trial15.png,7012,PC,C,119542,,15
16,1,22.230000019073486,test,1,m,7769.999980926514,Thu Aug 29 2024 17:33:24 GMT-0500 (Central Daylight Time),128127.39999997616,O,m,1033,1033,,16,no,1,1039.800000011921,127087.59999996424,test1trial16.png,test1trial16b.png,7012,PC,C,120526,,16
17,1,23.52900004386902,test,1,z,6470.999956130981,Thu Aug 29 2024 17:33:24 GMT-0500 (Central Daylight Time),129426.19999998808,O,z,1270,1270,,17,yes,1,1288.1000000238419,128138.09999996424,test1trial17.png,test1trial17.png,7012,PC,C,121576,,17
18,1,24.611999988555908,test,1,m,5388.000011444092,Thu Aug 29 2024 17:33:24 GMT-0500 (Central Daylight Time),130509.5,O,m,1069,1069,,18,no,1,1080.4000000357628,129429.09999996424,test1trial18.png,test1trial18b.png,7012,PC,C,122865,,18
18,1,26.67899990081787,test,0,m,3321.000099182129,Thu Aug 29 2024 17:33:24 GMT-0500 (Central Daylight Time),132575.80000001192,O,z,2047,2047,,19,no,1,2060.600000023842,130515.19999998808,test1trial19.png,test1trial19b.png,7012,PC,C,123952,,19
19,1,28.76099991798401,test,1,z,1239.0000820159912,Thu Aug 29 2024 17:33:24 GMT-0500 (Central Daylight Time),134658.5,O,z,2064,2064,,20,yes,1,2072.5,132586.0,test1trial20.png,test1trial20.png,7012,PC,C,126023,,20
19,1,29.777999877929688,test,0,z,222.0001220703125,Thu Aug 29 2024 17:33:24 GMT-0500 (Central Daylight Time),135674.80000001192,O,m,996,996,,21,yes,1,1006.0,134668.80000001192,test1trial21.png,test1trial21.png,7012,PC,C,128107,,21
19,1,30.02999997138977,test,0,z,-29.999971389770508,Thu Aug 29 2024 17:33:24 GMT-0500 (Central Daylight Time),135926.80000001192,O,None,237,237,,22,yes,1,242.10000002384186,135684.69999998808,test1trial22.png,test1trial22.png,7012,PC,C,129122,,22
1,2,1.9500000476837158,test,1,m,28049.999952316284,Thu Aug 29 2024 17:33:24 GMT-0500 (Central Daylight Time),150103.80000001192,O,m,1931,,1931.0,1,no,1,14419.100000023842,135684.69999998808,test2trial1.png,test2trial1b.png,7012,PC,C,,141603.0,1
2,2,3.2320001125335693,test,1,m,26767.99988746643,Thu Aug 29 2024 17:33:24 GMT-0500 (Central Daylight Time),151386.59999996424,O,m,1264,,1264.0,2,no,1,15701.899999976158,135684.69999998808,test2trial2.png,test2trial2b.png,7012,PC,C,,143551.0,2
3,2,4.2149999141693115,test,1,z,25785.00008583069,Thu Aug 29 2024 17:33:24 GMT-0500 (Central Daylight Time),152369.30000001192,O,z,965,,965.0,3,yes,1,16684.600000023842,135684.69999998808,test2trial3.png,test2trial3.png,7012,PC,C,,144834.0,3
4,2,5.54800009727478,test,1,z,24451.99990272522,Thu Aug 29 2024 17:33:24 GMT-0500 (Central Daylight Time),153702.19999998808,O,z,1319,,1319.0,4,yes,1,18017.5,135684.69999998808,test2trial4.png,test2trial4.png,7012,PC,C,,145816.0,4
5,2,8.664000034332275,test,1,z,21335.999965667725,Thu Aug 29 2024 17:33:24 GMT-0500 (Central Daylight Time),156817.80000001192,O,z,3098,,3098.0,5,yes,1,21133.100000023842,135684.69999998808,test2trial5.png,test2trial5.png,7012,PC,C,,147149.0,5
6,2,10.77999997138977,test,1,z,19220.00002861023,Thu Aug 29 2024 17:33:24 GMT-0500 (Central Daylight Time),158933.69999998808,O,z,2094,,2094.0,6,yes,1,23249.0,135684.69999998808,test2trial6.png,test2trial6.png,7012,PC,C,,150265.0,6
7,2,11.779000043869019,test,1,m,18220.99995613098,Thu Aug 29 2024 17:33:24 GMT-0500 (Central Daylight Time),159933.39999997616,O,m,985,,985.0,7,no,1,24248.69999998808,135684.69999998808,test2trial7.png,test2trial7b.png,7012,PC,C,,152382.0,7
8,2,13.279000043869019,test,1,m,16720.99995613098,Thu Aug 29 2024 17:33:24 GMT-0500 (Central Daylight Time),161433.0,O,m,1473,,1473.0,8,no,1,25748.30000001192,135684.69999998808,test2trial8.png,test2trial8b.png,7012,PC,C,,153382.0,8
9,2,15.245000123977661,test,1,z,14754.999876022339,Thu Aug 29 2024 17:33:24 GMT-0500 (Central Daylight Time),163399.09999996424,O,z,1950,,1950.0,9,yes,1,27714.399999976158,135684.69999998808,test2trial9.png,test2trial9.png,7012,PC,C,,154881.0,9
10,2,16.42799997329712,test,1,z,13572.00002670288,Thu Aug 29 2024 17:33:24 GMT-0500 (Central Daylight Time),164581.89999997616,O,z,1168,,1168.0,10,yes,1,28897.19999998808,135684.69999998808,test2trial10.png,test2trial10.png,7012,PC,C,,156847.0,10
11,2,17.427000045776367,test,1,m,12572.999954223633,Thu Aug 29 2024 17:33:24 GMT-0500 (Central Daylight Time),165581.69999998808,O,m,977,,977.0,11,no,1,29897.0,135684.69999998808,test2trial11.png,test2trial11b.png,7012,PC,C,,158030.0,11
12,2,18.710000038146973,test,1,m,11289.999961853027,Thu Aug 29 2024 17:33:24 GMT-0500 (Central Daylight Time),166863.69999998808,O,m,1263,,1263.0,12,no,1,31179.0,135684.69999998808,test2trial12.png,test2trial12b.png,7012,PC,C,,159030.0,12
13,2,19.97699999809265,test,1,z,10023.000001907349,Thu Aug 29 2024 17:33:24 GMT-0500 (Central Daylight Time),168130.69999998808,O,z,1257,,1257.0,13,yes,1,32446.0,135684.69999998808,test2trial13.png,test2trial13.png,7012,PC,C,,160302.0,13
14,2,21.575999975204468,test,1,m,8424.000024795532,Thu Aug 29 2024 17:33:24 GMT-0500 (Central Daylight Time),169730.19999998808,O,m,1571,,1571.0,14,no,1,34045.5,135684.69999998808,test2trial14.png,test2trial14b.png,7012,PC,C,,161580.0,14
15,2,22.658999919891357,test,1,m,7341.000080108643,Thu Aug 29 2024 17:33:24 GMT-0500 (Central Daylight Time),170813.19999998808,O,m,1061,,1061.0,15,no,1,35128.5,135684.69999998808,test2trial15.png,test2trial15b.png,7012,PC,C,,163178.0,15
15,2,23.625999927520752,test,0,m,6374.000072479248,Thu Aug 29 2024 17:33:24 GMT-0500 (Central Daylight Time),171780.0,O,z,954,,954.0,16,no,1,36095.30000001192,135684.69999998808,test2trial16.png,test2trial16b.png,7012,PC,C,,164261.0,16
16,2,25.242000102996826,test,1,z,4757.999897003174,Thu Aug 29 2024 17:33:24 GMT-0500 (Central Daylight Time),173395.69999998808,O,z,1596,,1596.0,17,yes,1,37711.0,135684.69999998808,test2trial17.png,test2trial17.png,7012,PC,C,,165227.0,17
17,2,26.574000120162964,test,1,z,3425.999879837036,Thu Aug 29 2024 17:33:24 GMT-0500 (Central Daylight Time),174728.59999996424,O,z,1316,,1316.0,18,yes,1,39043.89999997616,135684.69999998808,test2trial18.png,test2trial18.png,7012,PC,C,,166843.0,18
18,2,27.64400005340576,test,1,z,2355.9999465942383,Thu Aug 29 2024 17:33:24 GMT-0500 (Central Daylight Time),175794.89999997616,O,z,1047,,1047.0,19,yes,1,40110.19999998808,135684.69999998808,test2trial19.png,test2trial19.png,7012,PC,C,,168175.0,19
19,2,28.677000045776367,test,1,z,1322.9999542236328,Thu Aug 29 2024 17:33:24 GMT-0500 (Central Daylight Time),176827.30000001192,O,z,1020,,1020.0,20,yes,1,41142.60000002384,135684.69999998808,test2trial20.png,test2trial20.png,7012,PC,C,,169242.0,20
20,2,29.743000030517578,test,1,z,256.9999694824219,Thu Aug 29 2024 17:33:24 GMT-0500 (Central Daylight Time),177893.39999997616,O,z,1049,,1049.0,21,yes,1,42208.69999998808,135684.69999998808,test2trial21.png,test2trial21.png,7012,PC,C,,170268.0,21
20,2,30.009999990463257,test,0,m,-9.999990463256836,Thu Aug 29 2024 17:33:24 GMT-0500 (Central Daylight Time),178160.59999996424,O,None,263,,263.0,22,no,1,42475.89999997616,135684.69999998808,test2trial22.png,test2trial22b.png,7012,PC,C,,171332.0,22
