acc_sum,block_c,block_dur,condition,correct,correct_response,countdown,datetime,endtime,project,response,response_time,response_time_test1_response,response_time_test2_response,row_sel,same,session_number,start_end,starttime,stim1,stim2,subject_id,task,task_vers,time_test1,time_test2,trial
1,1,0.0,prac,1,z,30000.0,Tue Nov 05 2024 17:04:39 GMT-0500 (Eastern Standard Time),41042.2000002861,I,z,1085,,,3,yes,1,2611.300000190735,38430.90000009537,practrial3.png,practrial3.png,12,PC,A,,,1
2,1,0.0,prac,1,m,30000.0,Tue Nov 05 2024 17:04:39 GMT-0500 (Eastern Standard Time),43242.09999990463,I,m,657,,,4,no,1,2191.199999809265,41050.90000009537,practrial4.png,practrial4b.png,12,PC,A,,,2
3,1,0.0,prac,1,m,30000.0,Tue Nov 05 2024 17:04:39 GMT-0500 (Eastern Standard Time),45825.2000002861,I,m,1049,,,2,no,1,2574.1000003814697,43251.09999990463,practrial2.png,practrial2b.png,12,PC,A,,,3
4,1,0.0,prac,1,z,30000.0,Tue Nov 05 2024 17:04:39 GMT-0500 (Eastern Standard Time),48275.300000190735,I,z,915,,,1,yes,1,2442.0999999046326,45833.2000002861,practrial1.png,practrial1.png,12,PC,A,,,4
5,1,0.0,prac,1,m,30000.0,Tue Nov 05 2024 17:04:39 GMT-0500 (Eastern Standard Time),51458.59999990463,I,m,1657,,,6,no,1,3174.8999996185303,48283.7000002861,practrial6.png,practrial6b.png,12,PC,A,,,5
6,1,0.0,prac,1,z,30000.0,Tue Nov 05 2024 17:04:39 GMT-0500 (Eastern Standard Time),54091.90000009537,I,z,1106,,,5,yes,1,2625.4000000953674,51466.5,practrial5.png,practrial5.png,12,PC,A,,,6
1,1,2.299999952316284,test,1,z,27700.000047683716,Tue Nov 05 2024 17:04:39 GMT-0500 (Eastern Standard Time),64358.90000009537,I,z,2284,2284,,1,yes,1,2293.800000190735,62065.09999990463,test1trial1.png,test1trial1.png,12,PC,A,49956,,1
2,1,3.3499999046325684,test,1,m,26650.00009536743,Tue Nov 05 2024 17:04:39 GMT-0500 (Eastern Standard Time),65409.0,I,m,1031,1031,,2,no,1,1043.4000000953674,64365.59999990463,test1trial2.png,test1trial2b.png,12,PC,A,52257,,2
3,1,5.25,test,1,z,24750.0,Tue Nov 05 2024 17:04:39 GMT-0500 (Eastern Standard Time),67308.59999990463,I,z,1884,1884,,3,yes,1,1892.0999999046326,65416.5,test1trial3.png,test1trial3.png,12,PC,A,53307,,3
4,1,7.132999897003174,test,1,m,22867.000102996826,Tue Nov 05 2024 17:04:39 GMT-0500 (Eastern Standard Time),69192.0,I,m,1867,1867,,4,no,1,1870.4000000953674,67321.59999990463,test1trial4.png,test1trial4b.png,12,PC,A,55213,,4
5,1,8.899999856948853,test,1,z,21100.000143051147,Tue Nov 05 2024 17:04:39 GMT-0500 (Eastern Standard Time),70958.40000009537,I,z,1758,1758,,5,yes,1,1759.4000000953674,69199.0,test1trial5.png,test1trial5.png,12,PC,A,57090,,5
6,1,10.283999919891357,test,1,m,19716.000080108643,Tue Nov 05 2024 17:04:39 GMT-0500 (Eastern Standard Time),72342.09999990463,I,m,1360,1360,,6,no,1,1376.7999997138977,70965.30000019073,test1trial6.png,test1trial6b.png,12,PC,A,58856,,6
7,1,11.666999816894531,test,1,z,18333.00018310547,Tue Nov 05 2024 17:04:39 GMT-0500 (Eastern Standard Time),73725.30000019073,I,z,1368,1368,,7,yes,1,1375.7000002861023,72349.59999990463,test1trial7.png,test1trial7.png,12,PC,A,60240,,7
8,1,14.5,test,1,m,15500.0,Tue Nov 05 2024 17:04:39 GMT-0500 (Eastern Standard Time),76558.59999990463,I,m,2817,2817,,8,no,1,2826.7999997138977,73731.80000019073,test1trial8.png,test1trial8b.png,12,PC,A,61623,,8
9,1,16.08399987220764,test,1,z,13916.000127792358,Tue Nov 05 2024 17:04:39 GMT-0500 (Eastern Standard Time),78141.90000009537,I,z,1568,1568,,9,yes,1,1576.8000001907349,76565.09999990463,test1trial9.png,test1trial9.png,12,PC,A,64456,,9
10,1,17.383999824523926,test,1,m,12616.000175476074,Tue Nov 05 2024 17:04:39 GMT-0500 (Eastern Standard Time),79442.0,I,m,1288,1288,,10,no,1,1293.2999997138977,78148.7000002861,test1trial10.png,test1trial10b.png,12,PC,A,66040,,10
11,1,18.899999856948853,test,1,z,11100.000143051147,Tue Nov 05 2024 17:04:39 GMT-0500 (Eastern Standard Time),80958.5,I,z,1509,1509,,11,yes,1,1509.9000000953674,79448.59999990463,test1trial11.png,test1trial11.png,12,PC,A,67339,,11
12,1,20.09999990463257,test,1,m,9900.000095367432,Tue Nov 05 2024 17:04:39 GMT-0500 (Eastern Standard Time),82158.30000019073,I,m,1193,1193,,12,no,1,1194.0,80964.30000019073,test1trial12.png,test1trial12b.png,12,PC,A,68855,,12
13,1,21.299999952316284,test,1,m,8700.000047683716,Tue Nov 05 2024 17:04:39 GMT-0500 (Eastern Standard Time),83358.7000002861,I,m,1192,1192,,13,no,1,1194.2000002861023,82164.5,test1trial13.png,test1trial13b.png,12,PC,A,70056,,13
14,1,22.399999856948853,test,1,m,7600.0001430511475,Tue Nov 05 2024 17:04:39 GMT-0500 (Eastern Standard Time),84458.59999990463,I,m,1081,1081,,14,no,1,1094.3999996185303,83364.2000002861,test1trial14.png,test1trial14b.png,12,PC,A,71255,,14
15,1,23.399999856948853,test,1,z,6600.0001430511475,Tue Nov 05 2024 17:04:39 GMT-0500 (Eastern Standard Time),85458.7000002861,I,z,987,987,,15,yes,1,992.4000000953674,84466.30000019073,test1trial15.png,test1trial15.png,12,PC,A,72357,,15
16,1,24.866999864578247,test,1,m,5133.000135421753,Tue Nov 05 2024 17:04:39 GMT-0500 (Eastern Standard Time),86925.30000019073,I,m,1452,1452,,16,no,1,1460.2000002861023,85465.09999990463,test1trial16.png,test1trial16b.png,12,PC,A,73356,,16
17,1,26.049999952316284,test,1,z,3950.000047683716,Tue Nov 05 2024 17:04:39 GMT-0500 (Eastern Standard Time),88108.59999990463,I,z,1161,1161,,17,yes,1,1176.6999998092651,86931.90000009537,test1trial17.png,test1trial17.png,12,PC,A,74823,,17
18,1,26.899999856948853,test,1,m,3100.0001430511475,Tue Nov 05 2024 17:04:39 GMT-0500 (Eastern Standard Time),88958.30000019073,I,m,841,841,,18,no,1,842.9000000953674,88115.40000009537,test1trial18.png,test1trial18b.png,12,PC,A,76006,,18
19,1,28.283999919891357,test,1,m,1716.0000801086426,Tue Nov 05 2024 17:04:39 GMT-0500 (Eastern Standard Time),90342.09999990463,I,m,1376,1376,,19,no,1,1377.2999997138977,88964.80000019073,test1trial19.png,test1trial19b.png,12,PC,A,76856,,19
20,1,29.449999809265137,test,1,z,550.0001907348633,Tue Nov 05 2024 17:04:39 GMT-0500 (Eastern Standard Time),91508.59999990463,I,z,1142,1142,,20,yes,1,1157.3999996185303,90351.2000002861,test1trial20.png,test1trial20.png,12,PC,A,78242,,20
20,1,30.018999814987183,test,0,z,-18.999814987182617,Tue Nov 05 2024 17:04:39 GMT-0500 (Eastern Standard Time),92077.2000002861,I,None,559,559,,21,yes,1,561.8000001907349,91515.40000009537,test1trial21.png,test1trial21.png,12,PC,A,79406,,21
1,2,1.0509998798370361,test,1,m,28949.000120162964,Tue Nov 05 2024 17:04:39 GMT-0500 (Eastern Standard Time),96992.30000019073,I,m,1036,,1036.0,1,no,1,5476.900000095367,91515.40000009537,test2trial1.png,test2trial1b.png,12,PC,A,,83836.0,1
2,2,2.2179999351501465,test,1,m,27782.000064849854,Tue Nov 05 2024 17:04:39 GMT-0500 (Eastern Standard Time),98158.90000009537,I,m,1144,,1144.0,2,no,1,6643.5,91515.40000009537,test2trial2.png,test2trial2b.png,12,PC,A,,84896.0,2
3,2,3.367000102996826,test,1,z,26632.999897003174,Tue Nov 05 2024 17:04:39 GMT-0500 (Eastern Standard Time),99308.59999990463,I,z,1128,,1128.0,3,yes,1,7793.199999809265,91515.40000009537,test2trial3.png,test2trial3.png,12,PC,A,,86056.0,3
4,2,4.384000062942505,test,1,z,25615.999937057495,Tue Nov 05 2024 17:04:39 GMT-0500 (Eastern Standard Time),100325.30000019073,I,z,1002,,1002.0,4,yes,1,8809.900000095367,91515.40000009537,test2trial4.png,test2trial4.png,12,PC,A,,87206.0,4
5,2,5.367000102996826,test,1,z,24632.999897003174,Tue Nov 05 2024 17:04:39 GMT-0500 (Eastern Standard Time),101308.0,I,z,960,,960.0,5,yes,1,9792.599999904633,91515.40000009537,test2trial5.png,test2trial5.png,12,PC,A,,88223.0,5
6,2,6.634000062942505,test,1,z,23365.999937057495,Tue Nov 05 2024 17:04:39 GMT-0500 (Eastern Standard Time),102575.40000009537,I,z,1253,,1253.0,6,yes,1,11060.0,91515.40000009537,test2trial6.png,test2trial6.png,12,PC,A,,89202.0,6
7,2,7.851000070571899,test,1,m,22148.9999294281,Tue Nov 05 2024 17:04:39 GMT-0500 (Eastern Standard Time),103792.0,I,m,1207,,1207.0,7,no,1,12276.599999904633,91515.40000009537,test2trial7.png,test2trial7b.png,12,PC,A,,90473.0,7
8,2,9.766999959945679,test,1,m,20233.00004005432,Tue Nov 05 2024 17:04:39 GMT-0500 (Eastern Standard Time),105708.59999990463,I,m,1902,,1902.0,8,no,1,14193.199999809265,91515.40000009537,test2trial8.png,test2trial8b.png,12,PC,A,,91689.0,8
9,2,28.967000007629395,test,1,z,1032.9999923706055,Tue Nov 05 2024 17:04:39 GMT-0500 (Eastern Standard Time),124908.7000002861,I,z,19186,,19186.0,9,yes,1,33393.300000190735,91515.40000009537,test2trial9.png,test2trial9.png,12,PC,A,,93606.0,9
9,2,30.01699995994568,test,0,z,-16.99995994567871,Tue Nov 05 2024 17:04:39 GMT-0500 (Eastern Standard Time),125958.7000002861,I,None,1041,,1041.0,10,yes,1,34443.300000190735,91515.40000009537,test2trial10.png,test2trial10.png,12,PC,A,,112807.0,10
