acc_sum,block_c,block_dur,condition,correct,correct_response,countdown,datetime,endtime,project,response,response_time,response_time_test1_response,response_time_test2_response,row_sel,same,session_number,start_end,starttime,stim1,stim2,subject_id,task,task_vers,time_test1,time_test2,trial
1,1,0.0,prac,1,m,30000.0,Fri Jan 17 2025 14:29:20 GMT-0500 (Eastern Standard Time),57458.19999885559,I,m,1377,,,6,no,3,2908.699998855591,54549.5,practrial6.png,practrial6b.png,9002,PC,B,,,1
2,1,0.0,prac,1,z,30000.0,Fri Jan 17 2025 14:29:20 GMT-0500 (Eastern Standard Time),60607.89999961853,I,z,1613,,,3,yes,3,3140.800001144409,57467.09999847412,practrial3.png,practrial3.png,9002,PC,B,,,2
3,1,0.0,prac,1,m,30000.0,Fri Jan 17 2025 14:29:20 GMT-0500 (Eastern Standard Time),63491.5,I,m,1347,,,4,no,3,2878.7000007629395,60612.79999923706,practrial4.png,practrial4b.png,9002,PC,B,,,3
4,1,0.0,prac,1,z,30000.0,Fri Jan 17 2025 14:29:20 GMT-0500 (Eastern Standard Time),66491.39999961853,I,z,1467,,,1,yes,3,2989.2000007629395,63502.19999885559,practrial1.png,practrial1.png,9002,PC,B,,,4
5,1,0.0,prac,1,z,30000.0,Fri Jan 17 2025 14:29:20 GMT-0500 (Eastern Standard Time),69358.0,I,z,1324,,,5,yes,3,2853.400001525879,66504.59999847412,practrial5.png,practrial5.png,9002,PC,B,,,5
6,1,0.0,prac,1,m,30000.0,Fri Jan 17 2025 14:29:20 GMT-0500 (Eastern Standard Time),72308.09999847412,I,m,1410,,,2,no,3,2942.199998855591,69365.89999961853,practrial2.png,practrial2b.png,9002,PC,B,,,6
0,1,1.4500000476837158,test,0,z,28549.999952316284,Fri Jan 17 2025 14:29:20 GMT-0500 (Eastern Standard Time),84975.29999923706,I,m,1437,1437,,1,yes,3,1444.5,83530.79999923706,test1trial1.png,test1trial1.png,9002,PC,B,81324,,1
1,1,2.800999879837036,test,1,m,27199.000120162964,Fri Jan 17 2025 14:29:20 GMT-0500 (Eastern Standard Time),86325.39999961853,I,m,1327,1327,,2,no,3,1341.1000003814697,84984.29999923706,test1trial2.png,test1trial2b.png,9002,PC,B,82778,,2
2,1,3.882999897003174,test,1,z,26117.000102996826,Fri Jan 17 2025 14:29:20 GMT-0500 (Eastern Standard Time),87408.09999847412,I,z,1062,1062,,3,yes,3,1072.8999996185303,86335.19999885559,test1trial3.png,test1trial3.png,9002,PC,B,84131,,3
3,1,4.900000095367432,test,1,m,25099.99990463257,Fri Jan 17 2025 14:29:20 GMT-0500 (Eastern Standard Time),88425.19999885559,I,m,992,992,,4,no,3,1009.8999996185303,87415.29999923706,test1trial4.png,test1trial4b.png,9002,PC,B,85209,,4
4,1,6.266999959945679,test,1,z,23733.00004005432,Fri Jan 17 2025 14:29:20 GMT-0500 (Eastern Standard Time),89791.5,I,z,1352,1352,,5,yes,3,1359.7000007629395,88431.79999923706,test1trial5.png,test1trial5.png,9002,PC,B,86225,,5
5,1,7.483999967575073,test,1,m,22516.000032424927,Fri Jan 17 2025 14:29:20 GMT-0500 (Eastern Standard Time),91008.29999923706,I,m,1203,1203,,6,no,3,1210.7999992370605,89797.5,test1trial6.png,test1trial6b.png,9002,PC,B,87591,,6
6,1,8.650000095367432,test,1,z,21349.99990463257,Fri Jan 17 2025 14:29:20 GMT-0500 (Eastern Standard Time),92174.69999885559,I,z,1153,1153,,7,yes,3,1159.8999996185303,91014.79999923706,test1trial7.png,test1trial7.png,9002,PC,B,88808,,7
6,1,9.867000102996826,test,0,m,20132.999897003174,Fri Jan 17 2025 14:29:20 GMT-0500 (Eastern Standard Time),93391.59999847412,I,z,1204,1204,,8,no,3,1211.8999996185303,92179.69999885559,test1trial8.png,test1trial8b.png,9002,PC,B,89974,,8
7,1,10.900000095367432,test,1,z,19099.99990463257,Fri Jan 17 2025 14:29:20 GMT-0500 (Eastern Standard Time),94425.0,I,z,1009,1009,,9,yes,3,1026.5,93398.5,test1trial9.png,test1trial9.png,9002,PC,B,91192,,9
8,1,11.934000015258789,test,1,m,18065.99998474121,Fri Jan 17 2025 14:29:20 GMT-0500 (Eastern Standard Time),95458.29999923706,I,m,1012,1012,,10,no,3,1024.3999996185303,94433.89999961853,test1trial10.png,test1trial10b.png,9002,PC,B,92230,,10
9,1,12.900000095367432,test,1,z,17099.99990463257,Fri Jan 17 2025 14:29:20 GMT-0500 (Eastern Standard Time),96425.19999885559,I,z,941,941,,11,yes,3,957.6999988555908,95467.5,test1trial11.png,test1trial11.png,9002,PC,B,93260,,11
10,1,14.049999952316284,test,1,m,15950.000047683716,Fri Jan 17 2025 14:29:20 GMT-0500 (Eastern Standard Time),97574.89999961853,I,m,1128,1128,,12,no,3,1143.0,96431.89999961853,test1trial12.png,test1trial12b.png,9002,PC,B,94225,,12
10,1,15.049999952316284,test,0,m,14950.000047683716,Fri Jan 17 2025 14:29:20 GMT-0500 (Eastern Standard Time),98575.0,I,z,986,986,,13,no,3,992.7000007629395,97582.29999923706,test1trial13.png,test1trial13b.png,9002,PC,B,95375,,13
10,1,16.983999967575073,test,0,m,13016.000032424927,Fri Jan 17 2025 14:29:20 GMT-0500 (Eastern Standard Time),100508.19999885559,I,z,1922,1922,,14,no,3,1926.5,98581.69999885559,test1trial14.png,test1trial14b.png,9002,PC,B,96375,,14
11,1,18.41599988937378,test,1,z,11584.00011062622,Fri Jan 17 2025 14:29:20 GMT-0500 (Eastern Standard Time),101940.79999923706,I,z,1407,1407,,15,yes,3,1423.7999992370605,100517.0,test1trial15.png,test1trial15.png,9002,PC,B,98313,,15
12,1,19.40000009536743,test,1,m,10599.999904632568,Fri Jan 17 2025 14:29:20 GMT-0500 (Eastern Standard Time),102924.89999961853,I,m,976,976,,16,no,3,981.0,101943.89999961853,test1trial16.png,test1trial16b.png,9002,PC,B,99737,,16
13,1,20.65000009536743,test,1,z,9349.999904632568,Fri Jan 17 2025 14:29:20 GMT-0500 (Eastern Standard Time),104175.29999923706,I,z,1237,1237,,17,yes,3,1243.8999996185303,102931.39999961853,test1trial17.png,test1trial17.png,9002,PC,B,100725,,17
14,1,22.18400001525879,test,1,m,7815.999984741211,Fri Jan 17 2025 14:29:20 GMT-0500 (Eastern Standard Time),105708.29999923706,I,m,1523,1523,,18,no,3,1526.7000007629395,104181.59999847412,test1trial18.png,test1trial18b.png,9002,PC,B,101974,,18
15,1,24.25,test,1,m,5750.0,Fri Jan 17 2025 14:29:20 GMT-0500 (Eastern Standard Time),107774.59999847412,I,m,2052,2052,,19,no,3,2058.8999996185303,105715.69999885559,test1trial19.png,test1trial19b.png,9002,PC,B,103509,,19
16,1,25.634000062942505,test,1,z,4365.999937057495,Fri Jan 17 2025 14:29:20 GMT-0500 (Eastern Standard Time),109158.29999923706,I,z,1366,1366,,20,yes,3,1380.1000003814697,107778.19999885559,test1trial20.png,test1trial20.png,9002,PC,B,105571,,20
17,1,26.967000007629395,test,1,z,3032.9999923706055,Fri Jan 17 2025 14:29:20 GMT-0500 (Eastern Standard Time),110491.29999923706,I,z,1323,1323,,21,yes,3,1326.6000003814697,109164.69999885559,test1trial21.png,test1trial21.png,9002,PC,B,106958,,21
18,1,28.59999990463257,test,1,z,1400.0000953674316,Fri Jan 17 2025 14:29:20 GMT-0500 (Eastern Standard Time),112125.0,I,z,1624,1624,,22,yes,3,1628.0,110497.0,test1trial22.png,test1trial22.png,9002,PC,B,108290,,22
19,1,29.816999912261963,test,1,z,183.0000877380371,Fri Jan 17 2025 14:29:20 GMT-0500 (Eastern Standard Time),113341.19999885559,I,z,1202,1202,,23,yes,3,1207.3999996185303,112133.79999923706,test1trial23.png,test1trial23.png,9002,PC,B,109927,,23
19,1,30.01699995994568,test,0,z,-16.99995994567871,Fri Jan 17 2025 14:29:20 GMT-0500 (Eastern Standard Time),113541.89999961853,I,None,194,194,,24,yes,3,197.20000076293945,113344.69999885559,test1trial24.png,test1trial24.png,9002,PC,B,111138,,24
1,2,2.199000120162964,test,1,m,27800.999879837036,Fri Jan 17 2025 14:29:20 GMT-0500 (Eastern Standard Time),119725.29999923706,I,m,2185,,2185.0,1,no,3,6380.60000038147,113344.69999885559,test2trial1.png,test2trial1b.png,9002,PC,B,,115329.0,1
2,2,3.75,test,1,m,26250.0,Fri Jan 17 2025 14:29:20 GMT-0500 (Eastern Standard Time),121275.39999961853,I,m,1542,,1542.0,2,no,3,7930.700000762939,113344.69999885559,test2trial2.png,test2trial2b.png,9002,PC,B,,117524.0,2
3,2,4.932000160217285,test,1,z,25067.999839782715,Fri Jan 17 2025 14:29:20 GMT-0500 (Eastern Standard Time),122458.19999885559,I,z,1154,,1154.0,3,yes,3,9113.5,113344.69999885559,test2trial3.png,test2trial3.png,9002,PC,B,,119079.0,3
4,2,6.466000080108643,test,1,z,23533.999919891357,Fri Jan 17 2025 14:29:20 GMT-0500 (Eastern Standard Time),123991.39999961853,I,z,1510,,1510.0,4,yes,3,10646.70000076294,113344.69999885559,test2trial4.png,test2trial4.png,9002,PC,B,,120259.0,4
5,2,7.848999977111816,test,1,z,22151.000022888184,Fri Jan 17 2025 14:29:20 GMT-0500 (Eastern Standard Time),125375.0,I,z,1370,,1370.0,5,yes,3,12030.30000114441,113344.69999885559,test2trial5.png,test2trial5.png,9002,PC,B,,121792.0,5
6,2,9.633000135421753,test,1,z,20366.999864578247,Fri Jan 17 2025 14:29:20 GMT-0500 (Eastern Standard Time),127158.39999961853,I,z,1762,,1762.0,6,yes,3,13813.70000076294,113344.69999885559,test2trial6.png,test2trial6.png,9002,PC,B,,123175.0,6
7,2,11.433000087738037,test,1,m,18566.999912261963,Fri Jan 17 2025 14:29:20 GMT-0500 (Eastern Standard Time),128958.29999923706,I,m,1788,,1788.0,7,no,3,15613.60000038147,113344.69999885559,test2trial7.png,test2trial7b.png,9002,PC,B,,124958.0,7
8,2,12.683000087738037,test,1,m,17316.999912261963,Fri Jan 17 2025 14:29:20 GMT-0500 (Eastern Standard Time),130208.39999961853,I,m,1235,,1235.0,8,no,3,16863.70000076294,113344.69999885559,test2trial8.png,test2trial8b.png,9002,PC,B,,126758.0,8
9,2,14.183000087738037,test,1,z,15816.999912261963,Fri Jan 17 2025 14:29:20 GMT-0500 (Eastern Standard Time),131708.29999923706,I,z,1489,,1489.0,9,yes,3,18363.60000038147,113344.69999885559,test2trial9.png,test2trial9.png,9002,PC,B,,128008.0,9
10,2,15.64900016784668,test,1,z,14350.99983215332,Fri Jan 17 2025 14:29:20 GMT-0500 (Eastern Standard Time),133175.0,I,z,1445,,1445.0,10,yes,3,19830.30000114441,113344.69999885559,test2trial10.png,test2trial10.png,9002,PC,B,,129508.0,10
11,2,17.48200011253357,test,1,m,12517.99988746643,Fri Jan 17 2025 14:29:20 GMT-0500 (Eastern Standard Time),135007.79999923706,I,m,1820,,1820.0,11,no,3,21663.10000038147,113344.69999885559,test2trial11.png,test2trial11b.png,9002,PC,B,,130974.0,11
12,2,19.383000135421753,test,1,m,10616.999864578247,Fri Jan 17 2025 14:29:20 GMT-0500 (Eastern Standard Time),136908.1999988556,I,m,1892,,1892.0,12,no,3,23563.5,113344.69999885559,test2trial12.png,test2trial12b.png,9002,PC,B,,132805.0,12
13,2,21.16600012779236,test,1,z,8833.999872207642,Fri Jan 17 2025 14:29:20 GMT-0500 (Eastern Standard Time),138691.39999961853,I,z,1766,,1766.0,13,yes,3,25346.70000076294,113344.69999885559,test2trial13.png,test2trial13.png,9002,PC,B,,134707.0,13
14,2,24.182000160217285,test,1,m,5817.999839782715,Fri Jan 17 2025 14:29:20 GMT-0500 (Eastern Standard Time),141708.09999847412,I,m,3008,,3008.0,14,no,3,28363.39999961853,113344.69999885559,test2trial14.png,test2trial14b.png,9002,PC,B,,136490.0,14
15,2,25.749000072479248,test,1,m,4250.999927520752,Fri Jan 17 2025 14:29:20 GMT-0500 (Eastern Standard Time),143274.89999961853,I,m,1555,,1555.0,15,no,3,29930.20000076294,113344.69999885559,test2trial15.png,test2trial15b.png,9002,PC,B,,139510.0,15
15,2,27.133000135421753,test,0,m,2866.999864578247,Fri Jan 17 2025 14:29:20 GMT-0500 (Eastern Standard Time),144658.5,I,z,1366,,1366.0,16,no,3,31313.80000114441,113344.69999885559,test2trial16.png,test2trial16b.png,9002,PC,B,,141076.0,16
16,2,29.08300018310547,test,1,z,916.9998168945312,Fri Jan 17 2025 14:29:20 GMT-0500 (Eastern Standard Time),146608.29999923706,I,z,1936,,1936.0,17,yes,3,33263.60000038147,113344.69999885559,test2trial17.png,test2trial17.png,9002,PC,B,,142458.0,17
16,2,30.016000032424927,test,0,z,-16.000032424926758,Fri Jan 17 2025 14:29:20 GMT-0500 (Eastern Standard Time),147541.59999847412,I,None,924,,924.0,18,yes,3,34196.89999961853,113344.69999885559,test2trial18.png,test2trial18.png,9002,PC,B,,144408.0,18
